E_lab	E*/MeV	175Hg	176Hg	177Hg	178Hg	179Hg	180Hg
353.090	26.0	0.000E+00	0.000E+00	0.000E+00	0.254E-06	0.763E-07	0.710E-13
357.003	28.0	0.000E+00	0.000E+00	0.000E+00	0.428E-03	0.818E-03	0.107E-05
360.916	30.0	0.000E+00	0.000E+00	0.000E+00	0.752E-02	0.556E-02	0.512E-05
364.829	32.0	0.000E+00	0.000E+00	0.362E-07	0.103E+00	0.273E-01	0.123E-04
368.742	34.0	0.000E+00	0.000E+00	0.319E-03	0.828E+00	0.958E-01	0.236E-04
372.655	36.0	0.000E+00	0.000E+00	0.156E-01	0.206E+01	0.139E+00	0.198E-04
376.568	38.0	0.000E+00	0.000E+00	0.798E-01	0.212E+01	0.806E-01	0.000E+00
380.481	40.0	0.000E+00	0.000E+00	0.189E+00	0.145E+01	0.294E-01	0.000E+00
384.394	42.0	0.000E+00	0.940E-07	0.317E+00	0.824E+00	0.928E-02	0.000E+00
388.307	44.0	0.000E+00	0.216E-04	0.436E+00	0.417E+00	0.280E-02	0.000E+00
392.220	46.0	0.000E+00	0.487E-03	0.513E+00	0.194E+00	0.830E-03	0.000E+00
396.133	48.0	0.000E+00	0.314E-02	0.513E+00	0.843E-01	0.243E-03	0.000E+00
400.046	50.0	0.000E+00	0.101E-01	0.437E+00	0.349E-01	0.702E-04	0.000E+00
403.959	52.0	0.000E+00	0.220E-01	0.324E+00	0.139E-01	0.196E-04	0.000E+00
407.872	54.0	0.000E+00	0.374E-01	0.213E+00	0.537E-02	0.410E-05	0.000E+00
411.785	56.0	0.149E-06	0.531E-01	0.128E+00	0.203E-02	0.000E+00	0.000E+00
415.698	58.0	0.582E-05	0.649E-01	0.708E-01	0.756E-03	0.000E+00	0.000E+00
419.611	60.0	0.619E-04	0.689E-01	0.370E-01	0.278E-03	0.000E+00	0.000E+00
423.524	62.0	0.292E-03	0.641E-01	0.184E-01	0.101E-03	0.000E+00	0.000E+00
427.437	64.0	0.842E-03	0.532E-01	0.881E-02	0.360E-04	0.000E+00	0.000E+00
431.350	66.0	0.178E-02	0.399E-01	0.409E-02	0.126E-04	0.000E+00	0.000E+00
435.263	68.0	0.300E-02	0.275E-01	0.186E-02	0.417E-05	0.000E+00	0.000E+00
439.177	70.0	0.426E-02	0.176E-01	0.825E-03	0.106E-05	0.000E+00	0.000E+00
443.090	72.0	0.520E-02	0.107E-01	0.361E-03	0.000E+00	0.000E+00	0.000E+00
447.003	74.0	0.554E-02	0.618E-02	0.156E-03	0.000E+00	0.000E+00	0.000E+00
450.916	76.0	0.526E-02	0.344E-02	0.661E-04	0.000E+00	0.000E+00	0.000E+00
454.829	78.0	0.453E-02	0.185E-02	0.276E-04	0.000E+00	0.000E+00	0.000E+00
458.742	80.0	0.358E-02	0.969E-03	0.114E-04	0.000E+00	0.000E+00	0.000E+00
462.655	82.0	0.264E-02	0.496E-03	0.458E-05	0.000E+00	0.000E+00	0.000E+00
466.568	84.0	0.184E-02	0.249E-03	0.177E-05	0.000E+00	0.000E+00	0.000E+00
470.481	86.0	0.122E-02	0.123E-03	0.655E-06	0.000E+00	0.000E+00	0.000E+00
474.394	88.0	0.772E-03	0.599E-04	0.141E-06	0.000E+00	0.000E+00	0.000E+00
478.307	90.0	0.473E-03	0.287E-04	0.000E+00	0.000E+00	0.000E+00	0.000E+00
482.220	92.0	0.282E-03	0.135E-04	0.000E+00	0.000E+00	0.000E+00	0.000E+00
486.133	94.0	0.163E-03	0.628E-05	0.000E+00	0.000E+00	0.000E+00	0.000E+00
490.046	96.0	0.928E-04	0.288E-05	0.000E+00	0.000E+00	0.000E+00	0.000E+00
493.959	98.0	0.516E-04	0.129E-05	0.000E+00	0.000E+00	0.000E+00	0.000E+00
497.872	100.0	0.282E-04	0.565E-06	0.000E+00	0.000E+00	0.000E+00	0.000E+00


E_lab	E*/MeV	174Au	175Au	176Au	177Au	178Au	179Au
353.090	26.0	0.000E+00	0.000E+00	0.000E+00	0.000E+00	0.129E-05	0.943E-07
357.003	28.0	0.000E+00	0.000E+00	0.000E+00	0.621E-07	0.210E-02	0.106E-02
360.916	30.0	0.000E+00	0.000E+00	0.000E+00	0.400E-04	0.318E-01	0.845E-02
364.829	32.0	0.000E+00	0.000E+00	0.000E+00	0.601E-02	0.387E+00	0.482E-01
368.742	34.0	0.000E+00	0.000E+00	0.000E+00	0.216E+00	0.296E+01	0.201E+00
372.655	36.0	0.000E+00	0.000E+00	0.000E+00	0.138E+01	0.767E+01	0.383E+00
376.568	38.0	0.000E+00	0.000E+00	0.000E+00	0.310E+01	0.866E+01	0.311E+00
380.481	40.0	0.000E+00	0.000E+00	0.268E-04	0.474E+01	0.668E+01	0.147E+00
384.394	42.0	0.000E+00	0.000E+00	0.103E-02	0.602E+01	0.428E+01	0.552E-01
388.307	44.0	0.000E+00	0.000E+00	0.127E-01	0.677E+01	0.245E+01	0.192E-01
392.220	46.0	0.000E+00	0.000E+00	0.705E-01	0.686E+01	0.129E+01	0.644E-02
396.133	48.0	0.000E+00	0.000E+00	0.228E+00	0.631E+01	0.630E+00	0.209E-02
400.046	50.0	0.000E+00	0.575E-06	0.509E+00	0.526E+01	0.291E+00	0.663E-03
403.959	52.0	0.000E+00	0.267E-04	0.875E+00	0.399E+01	0.128E+00	0.204E-03
407.872	54.0	0.000E+00	0.408E-03	0.125E+01	0.276E+01	0.541E-01	0.606E-04
411.785	56.0	0.000E+00	0.286E-02	0.153E+01	0.177E+01	0.221E-01	0.169E-04
415.698	58.0	0.000E+00	0.118E-01	0.166E+01	0.105E+01	0.883E-02	0.399E-05
419.611	60.0	0.000E+00	0.332E-01	0.161E+01	0.592E+00	0.344E-02	0.000E+00
423.524	62.0	0.000E+00	0.710E-01	0.142E+01	0.316E+00	0.131E-02	0.000E+00
427.437	64.0	0.138E-05	0.123E+00	0.114E+01	0.162E+00	0.488E-03	0.000E+00
431.350	66.0	0.197E-04	0.181E+00	0.845E+00	0.800E-01	0.178E-03	0.000E+00
435.263	68.0	0.143E-03	0.232E+00	0.585E+00	0.384E-01	0.636E-04	0.000E+00
439.177	70.0	0.630E-03	0.265E+00	0.381E+00	0.179E-01	0.220E-04	0.000E+00
443.090	72.0	0.195E-02	0.272E+00	0.236E+00	0.818E-02	0.695E-05	0.000E+00
447.003	74.0	0.460E-02	0.254E+00	0.139E+00	0.366E-02	0.168E-05	0.000E+00
450.916	76.0	0.886E-02	0.219E+00	0.794E-01	0.160E-02	0.000E+00	0.000E+00
454.829	78.0	0.145E-01	0.175E+00	0.438E-01	0.692E-03	0.000E+00	0.000E+00
458.742	80.0	0.208E-01	0.132E+00	0.234E-01	0.293E-03	0.000E+00	0.000E+00
462.655	82.0	0.266E-01	0.941E-01	0.123E-01	0.122E-03	0.000E+00	0.000E+00
466.568	84.0	0.308E-01	0.639E-01	0.626E-02	0.499E-04	0.000E+00	0.000E+00
470.481	86.0	0.325E-01	0.416E-01	0.314E-02	0.199E-04	0.000E+00	0.000E+00
474.394	88.0	0.317E-01	0.262E-01	0.154E-02	0.773E-05	0.000E+00	0.000E+00
478.307	90.0	0.288E-01	0.159E-01	0.747E-03	0.270E-05	0.000E+00	0.000E+00
482.220	92.0	0.245E-01	0.944E-02	0.356E-03	0.528E-06	0.000E+00	0.000E+00
486.133	94.0	0.198E-01	0.546E-02	0.167E-03	0.000E+00	0.000E+00	0.000E+00
490.046	96.0	0.152E-01	0.309E-02	0.771E-04	0.000E+00	0.000E+00	0.000E+00
493.959	98.0	0.111E-01	0.171E-02	0.351E-04	0.000E+00	0.000E+00	0.000E+00
497.872	100.0	0.786E-02	0.931E-03	0.157E-04	0.000E+00	0.000E+00	0.000E+00


E_lab	E*/MeV	173Pt	174Pt	175Pt	176Pt	177Pt	178Pt
353.090	26.0	0.000E+00	0.000E+00	0.199E-07	0.169E-07	0.124E-07	0.909E-06
357.003	28.0	0.000E+00	0.000E+00	0.488E-04	0.106E-03	0.129E-04	0.130E-02
360.916	30.0	0.000E+00	0.852E-07	0.111E-02	0.113E-02	0.936E-03	0.176E-01
364.829	32.0	0.000E+00	0.194E-04	0.193E-01	0.849E-02	0.383E-01	0.195E+00
368.742	34.0	0.000E+00	0.103E-02	0.207E+00	0.453E-01	0.685E+00	0.142E+01
372.655	36.0	0.000E+00	0.110E-01	0.748E+00	0.115E+00	0.305E+01	0.370E+01
376.568	38.0	0.000E+00	0.433E-01	0.118E+01	0.138E+00	0.564E+01	0.435E+01
380.481	40.0	0.000E+00	0.112E+00	0.129E+01	0.120E+00	0.762E+01	0.360E+01
384.394	42.0	0.187E-05	0.225E+00	0.117E+01	0.193E+00	0.892E+01	0.254E+01
388.307	44.0	0.375E-04	0.371E+00	0.931E+00	0.530E+00	0.950E+01	0.163E+01
392.220	46.0	0.322E-03	0.522E+00	0.660E+00	0.129E+01	0.934E+01	0.972E+00
396.133	48.0	0.174E-02	0.641E+00	0.423E+00	0.256E+01	0.853E+01	0.541E+00
400.046	50.0	0.671E-02	0.695E+00	0.249E+00	0.405E+01	0.722E+01	0.284E+00
403.959	52.0	0.193E-01	0.674E+00	0.150E+00	0.552E+01	0.568E+01	0.141E+00
407.872	54.0	0.430E-01	0.588E+00	0.141E+00	0.667E+01	0.417E+01	0.669E-01
411.785	56.0	0.781E-01	0.466E+00	0.271E+00	0.728E+01	0.285E+01	0.305E-01
415.698	58.0	0.120E+00	0.338E+00	0.595E+00	0.728E+01	0.184E+01	0.134E-01
419.611	60.0	0.159E+00	0.227E+00	0.113E+01	0.671E+01	0.112E+01	0.573E-02
423.524	62.0	0.186E+00	0.143E+00	0.182E+01	0.575E+01	0.645E+00	0.238E-02
427.437	64.0	0.193E+00	0.889E-01	0.225E+01	0.534E+01	0.356E+00	0.964E-03
431.350	66.0	0.181E+00	0.677E-01	0.290E+01	0.414E+01	0.189E+00	0.381E-03
435.263	68.0	0.155E+00	0.860E-01	0.341E+01	0.303E+01	0.971E-01	0.147E-03
439.177	70.0	0.122E+00	0.155E+00	0.368E+01	0.210E+01	0.484E-01	0.551E-04
443.090	72.0	0.889E-01	0.282E+00	0.369E+01	0.139E+01	0.234E-01	0.202E-04
447.003	74.0	0.611E-01	0.465E+00	0.346E+01	0.751E+00	0.111E-01	0.705E-05
450.916	76.0	0.399E-01	0.686E+00	0.304E+01	0.352E+00	0.512E-02	0.227E-05
454.829	78.0	0.257E-01	0.913E+00	0.252E+01	0.159E+00	0.231E-02	0.546E-06
458.742	80.0	0.182E-01	0.111E+01	0.198E+01	0.745E-01	0.102E-02	0.000E+00
462.655	82.0	0.209E-01	0.123E+01	0.148E+01	0.386E-01	0.445E-03	0.000E+00
466.568	84.0	0.301E-01	0.128E+01	0.105E+01	0.191E-01	0.190E-03	0.000E+00
470.481	86.0	0.497E-01	0.124E+01	0.544E+00	0.102E-01	0.792E-04	0.000E+00
474.394	88.0	0.739E-01	0.114E+01	0.435E+00	0.519E-02	0.324E-04	0.000E+00
478.307	90.0	0.109E+00	0.101E+01	0.195E+00	0.263E-02	0.127E-04	0.000E+00
482.220	92.0	0.148E+00	0.846E+00	0.850E-01	0.123E-02	0.425E-05	0.000E+00
486.133	94.0	0.185E+00	0.671E+00	0.374E-01	0.182E-03	0.997E-06	0.000E+00
490.046	96.0	0.214E+00	0.501E+00	0.164E-01	0.000E+00	0.833E-07	0.000E+00
493.959	98.0	0.232E+00	0.336E+00	0.869E-02	0.000E+00	0.000E+00	0.000E+00
497.872	100.0	0.229E+00	0.230E+00	0.414E-02	0.000E+00	0.000E+00	0.000E+00


